Folder: ds2_repo/data/Jesus_data/electroless_Pt_28%_NH4OH

Note: data/Jesus_data/README.md
DTA and CSV files are raw data, the direct output from my equipment software.
The corresponding excel files are my ~3 day-effort to make the plots from each data output.

File: Break_in.DTA
EXPLAIN
TAG	CV
TITLE	LABEL	Cyclic Voltammetry	Test Identifier
DATE	LABEL	7/17/2023	Date
TIME	LABEL	22:03:30	Time
NOTES	NOTES	1	Notes...

PSTAT	PSTAT	IFC1010-20234	Potentiostat
VINIT	POTEN	-2.27E-01	F	Initial E (V)
VLIMIT1	POTEN	1.27E+00	F	Scan Limit 1 (V)
VLIMIT2	POTEN	-2.27E-01	F	Scan Limit 2 (V)
VFINAL	POTEN	-1.27E-01	F	Final E (V)
SCANRATE	QUANT	5.00E+01	Scan Rate (mV/s)
STEPSIZE	QUANT	2.00E+00	Step Size (mV)
CYCLES	IQUANT	30	Cycles (#)
IMODE	SELECTOR	1	I/E Range Mode
IRANGE	QUANT	2.00E+00	Max Current (mA)
AREA	QUANT	1.00E+00	Sample Area (cm^2)
EQDELAY	QUANT	5.00E+00	Equil. Time (s)
IRCOMP	SELECTOR	2	IRComp
PFCOR	QUANT	2.49E+01	PF Corr. (ohm)
SAMPLINGMODE	SELECTOR	2	Sampling Mode
EOC	QUANT	0	Open Circuit (V)
ELECTRODETYPE	SELECTOR	0	Electrode Type
STRIPPING	TOGGLE	F	Used for Stripping
POLARITY	TOGGLE	F	Signal Polarity
SEQUENCER	TOGGLE	TRUE	Run as Sequence
PSTATMODEL	IQUANT	64	Pstat Model
PSTATSECTION	LABEL	IFC1010-20234	Pstat Section
PSTATSERIALNO	LABEL	20234	Pstat Serial Number
CTRLMODE	IQUANT	1	Control Mode
ELECTROMETER	IQUANT	0	RE=0 or CS=1
IESTAB	IQUANT	2	I/E Stability
CASPEED	IQUANT	4	Control Amp Speed
CONVENTION	IQUANT	1	Current Convention
ICHRANGE	IQUANT	2	Ich Range
ICHRANGEMODE	TOGGLE	F	Ich Auto Range
ICHOFFSETENABLE	TOGGLE	F	Ich Offset Enable
ICHOFFSET	QUANT	0	Ich Offset (V)
ICHFILTER	IQUANT	3	Ich Filter
VCHRANGE	IQUANT	2	Vch Range
VCHRANGEMODE	TOGGLE	F	Vch Auto Range
VCHOFFSETENABLE	TOGGLE	F	Vch Offset Enable
VCHOFFSET	QUANT	0	Vch Offset (V)
VCHFILTER	IQUANT	1	Vch Filter
IERANGELOWERLIMIT	IQUANT	4	I/E Range Lower Limit
IERANGEMODE	TOGGLE	F	I/E AutoRange
IERANGE	IQUANT	10	I/E Range
ACHSELECT	IQUANT	0	Ach Select
ACHRANGE	IQUANT	2	Ach Range
ACHOFFSETENABLE	TOGGLE	F	Ach Offset Enable
ACHOFFSET	QUANT	0	Ach Offset (V)
ACHFILTER	IQUANT	1	Ach Filter
SENSECABLEID	IQUANT	14	Sense Cable ID
PWRCABLEID	IQUANT	14	Power Cable ID
DCCALDATE	LABEL	7/15/2022	DC Calibration Date
ACCALDATE	LABEL	07-08-20	AC Calibration Date
FRAMEWORKVERSION	LABEL	7.8.2	Framework Version
INSTRUMENTVERSION	LABEL	4.4	Instrument Version
CURVE1	TABLE
	Pt	T	Vf	Im		Vu	Sig	Ach	IERange	Over	Temp
	#	s	V vs. Ref.	A		V	V	V	#	bits	deg C
	0	0.04	-2.27E-01	-2.07E-04	-2.07E-01	0.00E+00	-2.27E-01	0.00E+00	10	...........	1505.86
	14	0.6	-1.99E-01	3.67E-04	3.67E-01	0.00E+00	-1.99E-01	0.00E+00	10	...........	1505.86
	28	1.16	-1.71E-01	6.24E-04	6.24E-01	0.00E+00	-1.71E-01	0.00E+00	10	...........	1505.86
	42	1.72	-1.43E-01	8.88E-04	8.88E-01	0.00E+00	-1.43E-01	0.00E+00	10	...........	1505.3
	56	2.28	-1.15E-01	2.30E-04	2.30E-01	0.00E+00	-1.15E-01	0.00E+00	10	...........	1505.3
	70	2.84	-8.70E-02	1.86E-04	1.86E-01	0.00E+00	-8.70E-02	0.00E+00	10	...........	1505.21
	84	3.4	-5.90E-02	1.60E-04	1.60E-01	0.00E+00	-5.90E-02	0.00E+00	10	...........	1505.21
	98	3.96	-3.10E-02	1.40E-04	1.40E-01	0.00E+00	-3.10E-02	0.00E+00	10	...........	1505.58
	112	4.52	-2.98E-03	1.35E-04	1.35E-01	0.00E+00	-3.01E-03	0.00E+00	10	...........	1505.58
	126	5.08	2.50E-02	1.25E-04	1.25E-01	0.00E+00	2.50E-02	0.00E+00	10	...........	1505.12
	140	5.64	5.30E-02	1.09E-04	1.09E-01	0.00E+00	5.30E-02	0.00E+00	10	...........	1505.14
	154	6.2	8.10E-02	7.32E-05	7.32E-02	0.00E+00	8.10E-02	0.00E+00	10	...........	1505.3
	168	6.76	1.09E-01	5.20E-05	5.20E-02	0.00E+00	1.09E-01	0.00E+00	10	...........	1505.3
	182	7.32	1.37E-01	3.86E-05	3.86E-02	0.00E+00	1.37E-01	0.00E+00	10	...........	1505.3
	196	7.88	1.65E-01	2.92E-05	2.92E-02	0.00E+00	1.65E-01	0.00E+00	10	...........	1505.21
	210	8.44	1.93E-01	2.35E-05	2.35E-02	0.00E+00	1.93E-01	0.00E+00	10	...........	1505.21
	224	9	2.21E-01	2.02E-05	2.02E-02	0.00E+00	2.21E-01	0.00E+00	10	...........	1505.4
	238	9.56	2.49E-01	1.84E-05	1.84E-02	0.00E+00	2.49E-01	0.00E+00	10	...........	1505.4
	252	10.12	2.77E-01	1.74E-05	1.74E-02	0.00E+00	2.77E-01	0.00E+00	10	...........	1505.21
	266	10.68	3.05E-01	1.63E-05	1.63E-02	0.00E+00	3.05E-01	0.00E+00	10	...........	1505.12
	280	11.24	3.33E-01	1.57E-05	1.57E-02	0.00E+00	3.33E-01	0.00E+00	10	...........	1505.12
	294	11.8	3.61E-01	1.49E-05	1.49E-02	0.00E+00	3.61E-01	0.00E+00	10	...........	1505.12
	308	12.36	3.89E-01	1.44E-05	1.44E-02	0.00E+00	3.89E-01	0.00E+00	10	...........	1505.12
	322	12.92	4.17E-01	1.43E-05	1.43E-02	0.00E+00	4.17E-01	0.00E+00	10	...........	1505.12
	336	13.48	4.45E-01	1.41E-05	1.41E-02	0.00E+00	4.45E-01	0.00E+00	10	...........	1505.12
	350	14.04	4.73E-01	1.44E-05	1.44E-02	0.00E+00	4.73E-01	0.00E+00	10	...........	1505.21
	364	14.6	5.01E-01	1.50E-05	1.50E-02	0.00E+00	5.01E-01	0.00E+00	10	...........	1505.21
	378	15.16	5.29E-01	1.64E-05	1.64E-02	0.00E+00	5.29E-01	0.00E+00	10	...........	1505.4
	392	15.72	5.57E-01	1.82E-05	1.82E-02	0.00E+00	5.57E-01	0.00E+00	10	...........	1505.21
	406	16.28	5.85E-01	2.07E-05	2.07E-02	0.00E+00	5.85E-01	0.00E+00	10	...........	1505.21
	420	16.84	6.13E-01	2.41E-05	2.41E-02	0.00E+00	6.13E-01	0.00E+00	10	...........	1505.49
	434	17.4	6.41E-01	2.94E-05	2.94E-02	0.00E+00	6.41E-01	0.00E+00	10	...........	1505.49
	448	17.96	6.69E-01	3.75E-05	3.75E-02	0.00E+00	6.69E-01	0.00E+00	10	...........	1505.21
	462	18.52	6.97E-01	4.70E-05	4.70E-02	0.00E+00	6.97E-01	0.00E+00	10	...........	1505.21
	476	19.08	7.25E-01	5.62E-05	5.62E-02	0.00E+00	7.25E-01	0.00E+00	10	...........	1505.49
	490	19.64	7.53E-01	6.43E-05	6.43E-02	0.00E+00	7.53E-01	0.00E+00	10	...........	1505.43
	504	20.2	7.81E-01	7.12E-05	7.12E-02	0.00E+00	7.81E-01	0.00E+00	10	...........	1505.21
	518	20.76	8.09E-01	7.77E-05	7.77E-02	0.00E+00	8.09E-01	0.00E+00	10	...........	1505.4
	532	21.32	8.37E-01	8.31E-05	8.31E-02	0.00E+00	8.37E-01	0.00E+00	10	...........	1505.4
	546	21.88	8.65E-01	8.76E-05	8.76E-02	0.00E+00	8.65E-01	0.00E+00	10	...........	1505.21
	560	22.44	8.93E-01	9.03E-05	9.03E-02	0.00E+00	8.93E-01	0.00E+00	10	...........	1505.21
	574	23	9.21E-01	9.25E-05	9.25E-02	0.00E+00	9.21E-01	0.00E+00	10	...........	1505.49
	588	23.56	9.49E-01	9.40E-05	9.40E-02	0.00E+00	9.49E-01	0.00E+00	10	...........	1505.49
	602	24.12	9.77E-01	9.54E-05	9.54E-02	0.00E+00	9.77E-01	0.00E+00	10	...........	1505.21
	616	24.68	1.01E+00	9.74E-05	9.74E-02	0.00E+00	1.01E+00	0.00E+00	10	...........	1505.49
	630	25.24	1.03E+00	9.98E-05	9.98E-02	0.00E+00	1.03E+00	0.00E+00	10	...........	1505.49
	644	25.8	1.06E+00	1.02E-04	1.02E-01	0.00E+00	1.06E+00	0.00E+00	10	...........	1505.21
	658	26.36	1.09E+00	1.05E-04	1.05E-01	0.00E+00	1.09E+00	0.00E+00	10	...........	1505.21
	672	26.92	1.12E+00	1.08E-04	1.08E-01	0.00E+00	1.12E+00	0.00E+00	10	...........	1505.4
	686	27.48	1.15E+00	1.11E-04	1.11E-01	0.00E+00	1.15E+00	0.00E+00	10	...........	1505.4
	700	28.04	1.17E+00	1.15E-04	1.15E-01	0.00E+00	1.17E+00	0.00E+00	10	...........	1505.21
	714	28.6	1.20E+00	1.19E-04	1.19E-01	0.00E+00	1.20E+00	0.00E+00	10	...........	1505.21
	728	29.16	1.23E+00	1.24E-04	1.24E-01	0.00E+00	1.23E+00	0.00E+00	10	...........	1505.49
	742	29.72	1.26E+00	1.31E-04	1.31E-01	0.00E+00	1.26E+00	0.00E+00	10	...........	1505.21
	756	30.28	1.26E+00	8.47E-05	8.47E-02	0.00E+00	1.26E+00	0.00E+00	10	...........	1505.21
	770	30.84	1.23E+00	4.25E-05	4.25E-02	0.00E+00	1.23E+00	0.00E+00	10	...........	1505.49
	784	31.4	1.21E+00	2.46E-05	2.46E-02	0.00E+00	1.21E+00	0.00E+00	10	...........	1505.49
	798	31.96	1.18E+00	1.49E-05	1.49E-02	0.00E+00	1.18E+00	0.00E+00	10	...........	1505.12
	812	32.52	1.15E+00	8.90E-06	8.90E-03	0.00E+00	1.15E+00	0.00E+00	10	...........	1505.12
[...]
	45012	1800.52	-2.03E-01	1.19E-04	1.19E-01	0.00E+00	-2.03E-01	0.00E+00	10	...........	1505.12
	45013	1800.56	-2.01E-01	1.53E-04	1.53E-01	0.00E+00	-2.01E-01	0.00E+00	10	...........	1505.12
	45014	1800.6	-1.99E-01	1.86E-04	1.86E-01	0.00E+00	-1.99E-01	0.00E+00	10	...........	1505.12
	45015	1800.64	-1.97E-01	2.15E-04	2.15E-01	0.00E+00	-1.97E-01	0.00E+00	10	...........	1505.12
	45016	1800.68	-1.95E-01	2.43E-04	2.43E-01	0.00E+00	-1.95E-01	0.00E+00	10	...........	1505.12
	45017	1800.72	-1.93E-01	2.70E-04	2.70E-01	0.00E+00	-1.93E-01	0.00E+00	10	...........	1505.12
	45018	1800.76	-1.91E-01	2.95E-04	2.95E-01	0.00E+00	-1.91E-01	0.00E+00	10	...........	1505.12
	45019	1800.8	-1.89E-01	3.21E-04	3.21E-01	0.00E+00	-1.89E-01	0.00E+00	10	...........	1505.12
	45020	1800.84	-1.87E-01	3.45E-04	3.45E-01	0.00E+00	-1.87E-01	0.00E+00	10	...........	1505.12
	45021	1800.88	-1.85E-01	3.69E-04	3.69E-01	0.00E+00	-1.85E-01	0.00E+00	10	...........	1505.12
	45022	1800.92	-1.83E-01	3.94E-04	3.94E-01	0.00E+00	-1.83E-01	0.00E+00	10	...........	1505.12
	45023	1800.96	-1.81E-01	4.18E-04	4.18E-01	0.00E+00	-1.81E-01	0.00E+00	10	...........	1505.12
	45024	1801	-1.79E-01	4.43E-04	4.43E-01	0.00E+00	-1.79E-01	0.00E+00	10	...........	1505.12
	45025	1801.04	-1.77E-01	4.68E-04	4.68E-01	0.00E+00	-1.77E-01	0.00E+00	10	...........	1505.18
	45026	1801.08	-1.75E-01	4.94E-04	4.94E-01	0.00E+00	-1.75E-01	0.00E+00	10	...........	1505.21
	45027	1801.12	-1.73E-01	5.21E-04	5.21E-01	0.00E+00	-1.73E-01	0.00E+00	10	...........	1505.21
	45028	1801.16	-1.71E-01	5.48E-04	5.48E-01	0.00E+00	-1.71E-01	0.00E+00	10	...........	1505.21
	45029	1801.2	-1.69E-01	5.76E-04	5.76E-01	0.00E+00	-1.69E-01	0.00E+00	10	...........	1505.21
	45030	1801.24	-1.67E-01	6.05E-04	6.05E-01	0.00E+00	-1.67E-01	0.00E+00	10	...........	1505.21
	45031	1801.28	-1.65E-01	6.33E-04	6.33E-01	0.00E+00	-1.65E-01	0.00E+00	10	...........	1505.21
	45032	1801.32	-1.63E-01	6.62E-04	6.62E-01	0.00E+00	-1.63E-01	0.00E+00	10	...........	1505.21
	45033	1801.36	-1.61E-01	6.90E-04	6.90E-01	0.00E+00	-1.61E-01	0.00E+00	10	...........	1505.21
	45034	1801.4	-1.59E-01	7.16E-04	7.16E-01	0.00E+00	-1.59E-01	0.00E+00	10	...........	1505.21
	45035	1801.44	-1.57E-01	7.42E-04	7.42E-01	0.00E+00	-1.57E-01	0.00E+00	10	...........	1505.21
	45036	1801.48	-1.55E-01	7.65E-04	7.65E-01	0.00E+00	-1.55E-01	0.00E+00	10	...........	1505.21
	45037	1801.52	-1.53E-01	7.84E-04	7.84E-01	0.00E+00	-1.53E-01	0.00E+00	10	...........	1505.21
	45038	1801.56	-1.51E-01	7.99E-04	7.99E-01	0.00E+00	-1.51E-01	0.00E+00	10	...........	1505.21
	45039	1801.6	-1.49E-01	8.08E-04	8.08E-01	0.00E+00	-1.49E-01	0.00E+00	10	...........	1505.21
	45040	1801.64	-1.47E-01	8.09E-04	8.09E-01	0.00E+00	-1.47E-01	0.00E+00	10	...........	1505.21
	45041	1801.68	-1.45E-01	8.01E-04	8.01E-01	0.00E+00	-1.45E-01	0.00E+00	10	...........	1505.21
	45042	1801.72	-1.43E-01	7.80E-04	7.80E-01	0.00E+00	-1.43E-01	0.00E+00	10	...........	1505.21
	45043	1801.76	-1.41E-01	7.44E-04	7.44E-01	0.00E+00	-1.41E-01	0.00E+00	10	...........	1505.21
	45044	1801.8	-1.39E-01	6.88E-04	6.88E-01	0.00E+00	-1.39E-01	0.00E+00	10	...........	1505.21
	45045	1801.84	-1.37E-01	6.13E-04	6.13E-01	0.00E+00	-1.37E-01	0.00E+00	10	...........	1505.21
	45046	1801.88	-1.35E-01	5.33E-04	5.33E-01	0.00E+00	-1.35E-01	0.00E+00	10	...........	1505.21
	45047	1801.92	-1.33E-01	4.55E-04	4.55E-01	0.00E+00	-1.33E-01	0.00E+00	10	...........	1505.21
	45048	1801.96	-1.31E-01	3.90E-04	3.90E-01	0.00E+00	-1.31E-01	0.00E+00	10	...........	1505.21
	45049	1802	-1.29E-01	3.38E-04	3.38E-01	0.00E+00	-1.29E-01	0.00E+00	10	...........	1505.21
	45050	1802.04	-1.27E-01	2.99E-04	2.99E-01	0.00E+00	-1.27E-01	0.00E+00	10	...........	1505.15

File: CO_Removal.DTA
EXPLAIN
TAG	CV
TITLE	LABEL	Cyclic Voltammetry	Test Identifier
DATE	LABEL	7/17/2023	Date
TIME	LABEL	23:23:41	Time
NOTES	NOTES	1	Notes...

PSTAT	PSTAT	IFC1010-20234	Potentiostat
VINIT	POTEN	-1.27E-01	F	Initial E (V)
VLIMIT1	POTEN	7.74E-01	F	Scan Limit 1 (V)
VLIMIT2	POTEN	-2.27E-01	F	Scan Limit 2 (V)
VFINAL	POTEN	-1.27E-01	F	Final E (V)
SCANRATE	QUANT	5.00E+01	Scan Rate (mV/s)
STEPSIZE	QUANT	2.00E+00	Step Size (mV)
CYCLES	IQUANT	5	Cycles (#)
IMODE	SELECTOR	1	I/E Range Mode
IRANGE	QUANT	2.00E+00	Max Current (mA)
AREA	QUANT	1.00E+00	Sample Area (cm^2)
EQDELAY	QUANT	0.00E+00	Equil. Time (s)
IRCOMP	SELECTOR	2	IRComp
PFCOR	QUANT	3.36E+01	PF Corr. (ohm)
SAMPLINGMODE	SELECTOR	2	Sampling Mode
EOC	QUANT	0	Open Circuit (V)
ELECTRODETYPE	SELECTOR	0	Electrode Type
STRIPPING	TOGGLE	F	Used for Stripping
POLARITY	TOGGLE	F	Signal Polarity
SEQUENCER	TOGGLE	TRUE	Run as Sequence
PSTATMODEL	IQUANT	64	Pstat Model
PSTATSECTION	LABEL	IFC1010-20234	Pstat Section
PSTATSERIALNO	LABEL	20234	Pstat Serial Number
CTRLMODE	IQUANT	1	Control Mode
ELECTROMETER	IQUANT	0	RE=0 or CS=1
IESTAB	IQUANT	2	I/E Stability
CASPEED	IQUANT	4	Control Amp Speed
CONVENTION	IQUANT	1	Current Convention
ICHRANGE	IQUANT	2	Ich Range
ICHRANGEMODE	TOGGLE	F	Ich Auto Range
ICHOFFSETENABLE	TOGGLE	F	Ich Offset Enable
ICHOFFSET	QUANT	0	Ich Offset (V)
ICHFILTER	IQUANT	3	Ich Filter
VCHRANGE	IQUANT	2	Vch Range
VCHRANGEMODE	TOGGLE	F	Vch Auto Range
VCHOFFSETENABLE	TOGGLE	F	Vch Offset Enable
VCHOFFSET	QUANT	0	Vch Offset (V)
VCHFILTER	IQUANT	1	Vch Filter
IERANGELOWERLIMIT	IQUANT	4	I/E Range Lower Limit
IERANGEMODE	TOGGLE	F	I/E AutoRange
IERANGE	IQUANT	10	I/E Range
ACHSELECT	IQUANT	0	Ach Select
ACHRANGE	IQUANT	2	Ach Range
ACHOFFSETENABLE	TOGGLE	F	Ach Offset Enable
ACHOFFSET	QUANT	0	Ach Offset (V)
ACHFILTER	IQUANT	1	Ach Filter
SENSECABLEID	IQUANT	14	Sense Cable ID
PWRCABLEID	IQUANT	14	Power Cable ID
DCCALDATE	LABEL	7/15/2022	DC Calibration Date
ACCALDATE	LABEL	07-08-20	AC Calibration Date
FRAMEWORKVERSION	LABEL	7.8.2	Framework Version
INSTRUMENTVERSION	LABEL	4.4	Instrument Version
CURVE1	TABLE
	Pt	T	Vf	Im		Vu	Sig	Ach	IERange	Over	Temp
	#	s	V vs. Ref.	A		V	V	V	#	bits	deg C
	0	0.04	-1.27E-01	-2.98E-06	-2.98E+00	0.00E+00	-1.27E-01	0.00E+00	10	...........	1505.21
	9	0.4	-1.09E-01	2.02E-06	2.02E+00	0.00E+00	-1.09E-01	0.00E+00	10	...........	1505.21
	18	0.76	-9.10E-02	3.19E-06	3.19E+00	0.00E+00	-9.10E-02	0.00E+00	10	...........	1505.21
	27	1.12	-7.30E-02	3.98E-06	3.98E+00	0.00E+00	-7.30E-02	0.00E+00	10	...........	1506.41
	36	1.48	-5.50E-02	4.68E-06	4.68E+00	0.00E+00	-5.50E-02	0.00E+00	10	...........	1506.41
	45	1.84	-3.70E-02	5.12E-06	5.12E+00	0.00E+00	-3.70E-02	0.00E+00	10	...........	1506.41
	54	2.2	-1.90E-02	5.52E-06	5.52E+00	0.00E+00	-1.90E-02	0.00E+00	10	...........	1505.21
	63	2.56	-9.76E-04	5.82E-06	5.82E+00	0.00E+00	-1.00E-03	0.00E+00	10	...........	1505.21
	72	2.92	1.70E-02	6.17E-06	6.17E+00	0.00E+00	1.70E-02	0.00E+00	10	...........	1505.21
	81	3.28	3.50E-02	6.42E-06	6.42E+00	0.00E+00	3.50E-02	0.00E+00	10	...........	1505.21
	90	3.64	5.30E-02	6.68E-06	6.68E+00	0.00E+00	5.30E-02	0.00E+00	10	...........	1505.21
	99	4	7.10E-02	7.15E-06	7.15E+00	0.00E+00	7.10E-02	0.00E+00	10	...........	1505.12
	108	4.36	8.90E-02	7.73E-06	7.73E+00	0.00E+00	8.90E-02	0.00E+00	10	...........	1505.12
	117	4.72	1.07E-01	8.55E-06	8.55E+00	0.00E+00	1.07E-01	0.00E+00	10	...........	1505.12
	126	5.08	1.25E-01	9.86E-06	9.86E+00	0.00E+00	1.25E-01	0.00E+00	10	...........	1505.58
	135	5.44	1.43E-01	1.18E-05	1.18E+01	0.00E+00	1.43E-01	0.00E+00	10	...........	1505.58
	144	5.8	1.61E-01	1.47E-05	1.47E+01	0.00E+00	1.61E-01	0.00E+00	10	...........	1505.58
	153	6.16	1.79E-01	1.90E-05	1.90E+01	0.00E+00	1.79E-01	0.00E+00	10	...........	1505.21
	162	6.52	1.97E-01	2.51E-05	2.51E+01	0.00E+00	1.97E-01	0.00E+00	10	...........	1505.21
	171	6.88	2.15E-01	3.32E-05	3.32E+01	0.00E+00	2.15E-01	0.00E+00	10	...........	1505.21
	180	7.24	2.33E-01	4.38E-05	4.38E+01	0.00E+00	2.33E-01	0.00E+00	10	...........	1505.21
	189	7.6	2.51E-01	5.50E-05	5.50E+01	0.00E+00	2.51E-01	0.00E+00	10	...........	1505.21
	198	7.96	2.69E-01	6.36E-05	6.36E+01	0.00E+00	2.69E-01	0.00E+00	10	...........	1505.12
	207	8.32	2.87E-01	6.58E-05	6.58E+01	0.00E+00	2.87E-01	0.00E+00	10	...........	1505.12
	216	8.68	3.05E-01	6.22E-05	6.22E+01	0.00E+00	3.05E-01	0.00E+00	10	...........	1505.12
	225	9.04	3.23E-01	5.58E-05	5.58E+01	0.00E+00	3.23E-01	0.00E+00	10	...........	1505.12
	234	9.4	3.41E-01	4.98E-05	4.98E+01	0.00E+00	3.41E-01	0.00E+00	10	...........	1505.12
	243	9.76	3.59E-01	4.57E-05	4.57E+01	0.00E+00	3.59E-01	0.00E+00	10	...........	1505.12
	252	10.12	3.77E-01	4.41E-05	4.41E+01	0.00E+00	3.77E-01	0.00E+00	10	...........	1505.12
	261	10.48	3.95E-01	4.56E-05	4.56E+01	0.00E+00	3.95E-01	0.00E+00	10	...........	1505.12
	270	10.84	4.13E-01	5.02E-05	5.02E+01	0.00E+00	4.13E-01	0.00E+00	10	...........	1505.12
	279	11.2	4.31E-01	5.94E-05	5.94E+01	0.00E+00	4.31E-01	0.00E+00	10	...........	1505.3
	288	11.56	4.49E-01	7.72E-05	7.72E+01	0.00E+00	4.49E-01	0.00E+00	10	...........	1505.3
	297	11.92	4.67E-01	1.09E-04	1.09E+02	0.00E+00	4.67E-01	0.00E+00	10	...........	1505.22
	306	12.28	4.85E-01	1.61E-04	1.61E+02	0.00E+00	4.85E-01	0.00E+00	10	...........	1505.21
	315	12.64	5.03E-01	2.23E-04	2.23E+02	0.00E+00	5.03E-01	0.00E+00	10	...........	1505.21
	324	13	5.21E-01	2.65E-04	2.65E+02	0.00E+00	5.21E-01	0.00E+00	10	...........	1505.4
	333	13.36	5.39E-01	2.54E-04	2.54E+02	0.00E+00	5.39E-01	0.00E+00	10	...........	1505.4
	342	13.72	5.57E-01	2.04E-04	2.04E+02	0.00E+00	5.57E-01	0.00E+00	10	...........	1505.4
	351	14.08	5.75E-01	1.76E-04	1.76E+02	0.00E+00	5.75E-01	0.00E+00	10	...........	1505.21
	360	14.44	5.93E-01	1.60E-04	1.60E+02	0.00E+00	5.93E-01	0.00E+00	10	...........	1505.21
	369	14.8	6.11E-01	1.15E-04	1.15E+02	0.00E+00	6.11E-01	0.00E+00	10	...........	1505.21
	378	15.16	6.29E-01	8.26E-05	8.26E+01	0.00E+00	6.29E-01	0.00E+00	10	...........	1505.49
	387	15.52	6.47E-01	7.40E-05	7.40E+01	0.00E+00	6.47E-01	0.00E+00	10	...........	1505.49
	396	15.88	6.65E-01	7.64E-05	7.64E+01	0.00E+00	6.65E-01	0.00E+00	10	...........	1505.49
	405	16.24	6.83E-01	8.30E-05	8.30E+01	0.00E+00	6.83E-01	0.00E+00	10	...........	1505.21
	414	16.6	7.01E-01	8.66E-05	8.66E+01	0.00E+00	7.01E-01	0.00E+00	10	...........	1505.21
	423	16.96	7.19E-01	9.35E-05	9.35E+01	0.00E+00	7.19E-01	0.00E+00	10	...........	1505.21
	432	17.32	7.37E-01	9.83E-05	9.83E+01	0.00E+00	7.37E-01	0.00E+00	10	...........	1505.21
	441	17.68	7.55E-01	1.03E-04	1.03E+02	0.00E+00	7.55E-01	0.00E+00	10	...........	1505.21
	450	18.04	7.73E-01	1.07E-04	1.07E+02	0.00E+00	7.73E-01	0.00E+00	10	...........	1505.21
	459	18.4	7.55E-01	7.62E-06	7.62E+00	0.00E+00	7.55E-01	0.00E+00	10	...........	1505.21
	468	18.76	7.37E-01	-8.40E-06	-8.40E+00	0.00E+00	7.37E-01	0.00E+00	10	...........	1505.21
	477	19.12	7.19E-01	-1.72E-05	-1.72E+01	0.00E+00	7.19E-01	0.00E+00	10	...........	1505.21
	486	19.48	7.01E-01	-2.42E-05	-2.42E+01	0.00E+00	7.01E-01	0.00E+00	10	...........	1505.21
	495	19.84	6.83E-01	-3.05E-05	-3.05E+01	0.00E+00	6.83E-01	0.00E+00	10	...........	1505.21
	504	20.2	6.65E-01	-3.66E-05	-3.66E+01	0.00E+00	6.65E-01	0.00E+00	10	...........	1505.21
	513	20.56	6.47E-01	-4.19E-05	-4.19E+01	0.00E+00	6.47E-01	0.00E+00	10	...........	1505.21
	522	20.92	6.29E-01	-4.58E-05	-4.58E+01	0.00E+00	6.29E-01	0.00E+00	10	...........	1505.21
[...]
	4961	198.48	-2.05E-01	1.09E-04	1.09E+02	0.00E+00	-2.05E-01	0.00E+00	10	...........	1505.58
	4962	198.52	-2.03E-01	1.47E-04	1.47E+02	0.00E+00	-2.03E-01	0.00E+00	10	...........	1505.58
	4963	198.56	-2.01E-01	1.81E-04	1.81E+02	0.00E+00	-2.01E-01	0.00E+00	10	...........	1505.58
	4964	198.6	-1.99E-01	2.13E-04	2.13E+02	0.00E+00	-1.99E-01	0.00E+00	10	...........	1505.58
	4965	198.64	-1.97E-01	2.42E-04	2.42E+02	0.00E+00	-1.97E-01	0.00E+00	10	...........	1505.58
	4966	198.68	-1.95E-01	2.69E-04	2.69E+02	0.00E+00	-1.95E-01	0.00E+00	10	...........	1505.58
	4967	198.72	-1.93E-01	2.95E-04	2.95E+02	0.00E+00	-1.93E-01	0.00E+00	10	...........	1505.58
	4968	198.76	-1.91E-01	3.19E-04	3.19E+02	0.00E+00	-1.91E-01	0.00E+00	10	...........	1505.58
	4969	198.8	-1.89E-01	3.43E-04	3.43E+02	0.00E+00	-1.89E-01	0.00E+00	10	...........	1505.58
	4970	198.84	-1.87E-01	3.66E-04	3.66E+02	0.00E+00	-1.87E-01	0.00E+00	10	...........	1505.37
	4971	198.88	-1.85E-01	3.89E-04	3.89E+02	0.00E+00	-1.85E-01	0.00E+00	10	...........	1505.21
	4972	198.92	-1.83E-01	4.12E-04	4.12E+02	0.00E+00	-1.83E-01	0.00E+00	10	...........	1505.21
	4973	198.96	-1.81E-01	4.35E-04	4.35E+02	0.00E+00	-1.81E-01	0.00E+00	10	...........	1505.21
	4974	199	-1.79E-01	4.59E-04	4.59E+02	0.00E+00	-1.79E-01	0.00E+00	10	...........	1505.21
	4975	199.04	-1.77E-01	4.83E-04	4.83E+02	0.00E+00	-1.77E-01	0.00E+00	10	...........	1505.21
	4976	199.08	-1.75E-01	5.09E-04	5.09E+02	0.00E+00	-1.75E-01	0.00E+00	10	...........	1505.21
	4977	199.12	-1.73E-01	5.34E-04	5.34E+02	0.00E+00	-1.73E-01	0.00E+00	10	...........	1505.21
	4978	199.16	-1.71E-01	5.61E-04	5.61E+02	0.00E+00	-1.71E-01	0.00E+00	10	...........	1505.21
	4979	199.2	-1.69E-01	5.88E-04	5.88E+02	0.00E+00	-1.69E-01	0.00E+00	10	...........	1505.21
	4980	199.24	-1.67E-01	6.16E-04	6.16E+02	0.00E+00	-1.67E-01	0.00E+00	10	...........	1505.21
	4981	199.28	-1.65E-01	6.44E-04	6.44E+02	0.00E+00	-1.65E-01	0.00E+00	10	...........	1505.21
	4982	199.32	-1.63E-01	6.72E-04	6.72E+02	0.00E+00	-1.63E-01	0.00E+00	10	...........	1505.21
	4983	199.36	-1.61E-01	7.00E-04	7.00E+02	0.00E+00	-1.61E-01	0.00E+00	10	...........	1505.21
	4984	199.4	-1.59E-01	7.27E-04	7.27E+02	0.00E+00	-1.59E-01	0.00E+00	10	...........	1505.21
	4985	199.44	-1.57E-01	7.53E-04	7.53E+02	0.00E+00	-1.57E-01	0.00E+00	10	...........	1505.21
	4986	199.48	-1.55E-01	7.76E-04	7.76E+02	0.00E+00	-1.55E-01	0.00E+00	10	...........	1505.21
	4987	199.52	-1.53E-01	7.97E-04	7.97E+02	0.00E+00	-1.53E-01	0.00E+00	10	...........	1505.21
	4988	199.56	-1.51E-01	8.14E-04	8.14E+02	0.00E+00	-1.51E-01	0.00E+00	10	...........	1505.21
	4989	199.6	-1.49E-01	8.25E-04	8.25E+02	0.00E+00	-1.49E-01	0.00E+00	10	...........	1505.21
	4990	199.64	-1.47E-01	8.29E-04	8.29E+02	0.00E+00	-1.47E-01	0.00E+00	10	...........	1505.21
	4991	199.68	-1.45E-01	8.25E-04	8.25E+02	0.00E+00	-1.45E-01	0.00E+00	10	...........	1505.21
	4992	199.72	-1.43E-01	8.09E-04	8.09E+02	0.00E+00	-1.43E-01	0.00E+00	10	...........	1505.21
	4993	199.76	-1.41E-01	7.79E-04	7.79E+02	0.00E+00	-1.41E-01	0.00E+00	10	...........	1505.21
	4994	199.8	-1.39E-01	7.29E-04	7.29E+02	0.00E+00	-1.39E-01	0.00E+00	10	...........	1505.21
	4995	199.84	-1.37E-01	6.59E-04	6.59E+02	0.00E+00	-1.37E-01	0.00E+00	10	...........	1505.32
	4996	199.88	-1.35E-01	5.75E-04	5.75E+02	0.00E+00	-1.35E-01	0.00E+00	10	...........	1505.4
	4997	199.92	-1.33E-01	4.90E-04	4.90E+02	0.00E+00	-1.33E-01	0.00E+00	10	...........	1505.4
	4998	199.96	-1.31E-01	4.15E-04	4.15E+02	0.00E+00	-1.31E-01	0.00E+00	10	...........	1505.4
	4999	200	-1.29E-01	3.53E-04	3.53E+02	0.00E+00	-1.29E-01	0.00E+00	10	...........	1505.4
	5000	200.04	-1.27E-01	3.07E-04	3.07E+02	0.00E+00	-1.27E-01	0.00E+00	10	...........	1505.4