Folder: ds2_repo/data/Jesus_data (part 2)

File: Test_Break_in_SHORT.DTA
EXPLAIN
TAG	CV
TITLE	LABEL	Cyclic Voltammetry	Test Identifier
DATE	LABEL	7/17/2023	Date
TIME	LABEL	19:32:03	Time
NOTES	NOTES	1	Notes...

PSTAT	PSTAT	IFC1010-20234	Potentiostat
VINIT	POTEN	-2.27000E-001	F	Initial E (V)
VLIMIT1	POTEN	1.27400E+000	F	Scan Limit 1 (V)
VLIMIT2	POTEN	-2.27000E-001	F	Scan Limit 2 (V)
VFINAL	POTEN	-1.27000E-001	F	Final E (V)
SCANRATE	QUANT	4.99999E+001	Scan Rate (mV/s)
STEPSIZE	QUANT	2.00000E+000	Step Size (mV)
CYCLES	IQUANT	30	Cycles (#)
IMODE	SELECTOR	1	I/E Range Mode
IRANGE	QUANT	2.00000E+000	Max Current (mA)
AREA	QUANT	1.00000E+000	Sample Area (cm^2)
EQDELAY	QUANT	5.00000E+000	Equil. Time (s)
IRCOMP	SELECTOR	2	IRComp
PFCOR	QUANT	3.36300E+001	PF Corr. (ohm)
SAMPLINGMODE	SELECTOR	2	Sampling Mode
EOC	QUANT	0	Open Circuit (V)
ELECTRODETYPE	SELECTOR	0	Electrode Type
STRIPPING	TOGGLE	F	Used for Stripping
POLARITY	TOGGLE	F	Signal Polarity
SEQUENCER	TOGGLE	TRUE	Run as Sequence
PSTATMODEL	IQUANT	64	Pstat Model
PSTATSECTION	LABEL	IFC1010-20234	Pstat Section
PSTATSERIALNO	LABEL	20234	Pstat Serial Number
CTRLMODE	IQUANT	1	Control Mode
ELECTROMETER	IQUANT	0	RE=0 or CS=1
IESTAB	IQUANT	2	I/E Stability
CASPEED	IQUANT	4	Control Amp Speed
CONVENTION	IQUANT	1	Current Convention
ICHRANGE	IQUANT	2	Ich Range
ICHRANGEMODE	TOGGLE	F	Ich Auto Range
ICHOFFSETENABLE	TOGGLE	F	Ich Offset Enable
ICHOFFSET	QUANT	0	Ich Offset (V)
ICHFILTER	IQUANT	3	Ich Filter
VCHRANGE	IQUANT	2	Vch Range
VCHRANGEMODE	TOGGLE	F	Vch Auto Range
VCHOFFSETENABLE	TOGGLE	F	Vch Offset Enable
VCHOFFSET	QUANT	0	Vch Offset (V)
VCHFILTER	IQUANT	1	Vch Filter
IERANGELOWERLIMIT	IQUANT	4	I/E Range Lower Limit
IERANGEMODE	TOGGLE	F	I/E AutoRange
IERANGE	IQUANT	10	I/E Range
ACHSELECT	IQUANT	0	Ach Select
ACHRANGE	IQUANT	2	Ach Range
ACHOFFSETENABLE	TOGGLE	F	Ach Offset Enable
ACHOFFSET	QUANT	0	Ach Offset (V)
ACHFILTER	IQUANT	1	Ach Filter
SENSECABLEID	IQUANT	14	Sense Cable ID
PWRCABLEID	IQUANT	14	Power Cable ID
DCCALDATE	LABEL	7/15/2022	DC Calibration Date
ACCALDATE	LABEL	7/8/2020	AC Calibration Date
FRAMEWORKVERSION	LABEL	7.8.2	Framework Version
INSTRUMENTVERSION	LABEL	4.40	Instrument Version
CURVE1	TABLE
	Pt	T	Vf	Im	Vu	Sig	Ach	IERange	Over	Temp
	#	s	V vs. Ref.	A	V	V	V	#	bits	deg C
	0	0.04	-2.26972E-001	-1.14515E-004	0.00000E+000	-2.26987E-001	0.00000E+000	10	...........	1505.77
	1	0.08	-2.24988E-001	-6.32121E-005	0.00000E+000	-2.24988E-001	0.00000E+000	10	...........	1505.77
	2	0.12	-2.22982E-001	-1.79662E-005	0.00000E+000	-2.22988E-001	0.00000E+000	10	...........	1505.77
	3	0.16	-2.20979E-001	2.15730E-005	0.00000E+000	-2.20988E-001	0.00000E+000	10	...........	1505.77
	4	0.2	-2.18987E-001	5.77461E-005	0.00000E+000	-2.18988E-001	0.00000E+000	10	...........	1505.77
	5	0.24	-2.16986E-001	9.06400E-005	0.00000E+000	-2.16988E-001	0.00000E+000	10	...........	1505.77
	6	0.28	-2.14989E-001	1.19254E-004	0.00000E+000	-2.14988E-001	0.00000E+000	10	...........	1505.77
	7	0.32	-2.12997E-001	1.45836E-004	0.00000E+000	-2.12989E-001	0.00000E+000	10	...........	1505.77
	8	0.36	-2.10997E-001	1.68304E-004	0.00000E+000	-2.10989E-001	0.00000E+000	10	...........	1505.77
	9	0.4	-2.08997E-001	1.87687E-004	0.00000E+000	-2.08989E-001	0.00000E+000	10	...........	1505.77
	10	0.44	-2.06993E-001	2.04301E-004	0.00000E+000	-2.06989E-001	0.00000E+000	10	...........	1505.77
	11	0.48	-2.04979E-001	2.16451E-004	0.00000E+000	-2.04989E-001	0.00000E+000	10	...........	1505.77
	12	0.52	-2.02963E-001	2.26521E-004	0.00000E+000	-2.02989E-001	0.00000E+000	10	...........	1505.77
	13	0.56	-2.00982E-001	2.32314E-004	0.00000E+000	-2.00990E-001	0.00000E+000	10	...........	1505.77
	14	0.6	-1.98973E-001	2.34958E-004	0.00000E+000	-1.98990E-001	0.00000E+000	10	...........	1505.77
	15	0.64	-1.96983E-001	2.36413E-004	0.00000E+000	-1.96990E-001	0.00000E+000	10	...........	1505.77
	16	0.68	-1.94990E-001	2.33695E-004	0.00000E+000	-1.94990E-001	0.00000E+000	10	...........	1505.77
	17	0.72	-1.92999E-001	2.31595E-004	0.00000E+000	-1.92990E-001	0.00000E+000	10	...........	1505.77
	18	0.76	-1.90987E-001	2.27720E-004	0.00000E+000	-1.90990E-001	0.00000E+000	10	...........	1505.77
	19	0.8	-1.88980E-001	2.23500E-004	0.00000E+000	-1.88990E-001	0.00000E+000	10	...........	1505.77
	20	0.84	-1.86986E-001	2.19209E-004	0.00000E+000	-1.86991E-001	0.00000E+000	10	...........	1505.77
	21	0.88	-1.84984E-001	2.13058E-004	0.00000E+000	-1.84991E-001	0.00000E+000	10	...........	1505.77
	22	0.92	-1.82998E-001	2.08120E-004	0.00000E+000	-1.82991E-001	0.00000E+000	10	...........	1505.77
	23	0.96	-1.80996E-001	2.01289E-004	0.00000E+000	-1.80991E-001	0.00000E+000	10	...........	1505.77
	24	1	-1.78972E-001	1.96054E-004	0.00000E+000	-1.78991E-001	0.00000E+000	10	...........	1505.77
	25	1.04	-1.76982E-001	1.90089E-004	0.00000E+000	-1.76991E-001	0.00000E+000	10	...........	1505.77
	26	1.08	-1.74982E-001	1.84142E-004	0.00000E+000	-1.74992E-001	0.00000E+000	10	...........	1505.77
	27	1.12	-1.72979E-001	1.78844E-004	0.00000E+000	-1.72992E-001	0.00000E+000	10	...........	1505.77
	28	1.16	-1.70990E-001	1.72449E-004	0.00000E+000	-1.70992E-001	0.00000E+000	10	...........	1505.77
	29	1.2	-1.68993E-001	1.67342E-004	0.00000E+000	-1.68992E-001	0.00000E+000	10	...........	1505.77
	30	1.24	-1.67013E-001	1.61629E-004	0.00000E+000	-1.66992E-001	0.00000E+000	10	...........	1505.77
	31	1.28	-1.64989E-001	1.56709E-004	0.00000E+000	-1.64992E-001	0.00000E+000	10	...........	1505.77
	32	1.32	-1.62988E-001	1.52070E-004	0.00000E+000	-1.62992E-001	0.00000E+000	10	...........	1505.77
	33	1.36	-1.61000E-001	1.47442E-004	0.00000E+000	-1.60993E-001	0.00000E+000	10	...........	1505.77
	34	1.4	-1.58996E-001	1.43721E-004	0.00000E+000	-1.58993E-001	0.00000E+000	10	...........	1505.77
	35	1.44	-1.56990E-001	1.39780E-004	0.00000E+000	-1.56993E-001	0.00000E+000	10	...........	1505.77
	36	1.48	-1.55000E-001	1.36787E-004	0.00000E+000	-1.54993E-001	0.00000E+000	10	...........	1505.77
	37	1.52	-1.52962E-001	1.33693E-004	0.00000E+000	-1.52993E-001	0.00000E+000	10	...........	1505.77
	38	1.56	-1.50978E-001	1.30810E-004	0.00000E+000	-1.50993E-001	0.00000E+000	10	...........	1505.77
	39	1.6	-1.48982E-001	1.27964E-004	0.00000E+000	-1.48994E-001	0.00000E+000	10	...........	1505.77
	40	1.64	-1.46988E-001	1.25134E-004	0.00000E+000	-1.46994E-001	0.00000E+000	10	...........	1505.77
	41	1.68	-1.45005E-001	1.22470E-004	0.00000E+000	-1.44994E-001	0.00000E+000	10	...........	1505.77
	42	1.72	-1.42995E-001	1.19786E-004	0.00000E+000	-1.42994E-001	0.00000E+000	10	...........	1505.77
	43	1.76	-1.40987E-001	1.17475E-004	0.00000E+000	-1.40994E-001	0.00000E+000	10	...........	1505.77
	44	1.8	-1.38984E-001	1.15044E-004	0.00000E+000	-1.38994E-001	0.00000E+000	10	...........	1505.55
	45	1.84	-1.36997E-001	1.13076E-004	0.00000E+000	-1.36995E-001	0.00000E+000	10	...........	1505.49
	46	1.88	-1.35006E-001	1.10872E-004	0.00000E+000	-1.34995E-001	0.00000E+000	10	...........	1505.49
	47	1.92	-1.32996E-001	1.09117E-004	0.00000E+000	-1.32995E-001	0.00000E+000	10	...........	1505.49
	48	1.96	-1.30993E-001	1.07422E-004	0.00000E+000	-1.30995E-001	0.00000E+000	10	...........	1505.49
	49	2	-1.28996E-001	1.05622E-004	0.00000E+000	-1.28995E-001	0.00000E+000	10	...........	1505.49
	50	2.04	-1.26989E-001	1.04214E-004	0.00000E+000	-1.26995E-001	0.00000E+000	10	...........	1505.49