Folder: ds2_repo/data/Jesus_data

Note: data/Jesus_data/README.md
DTA and CSV files are raw data, the direct output from my equipment software.
The corresponding excel files are my ~3 day-effort to make the plots from each data output.

File: CO_Removal.DTA
EXPLAIN
TAG	CV
TITLE	LABEL	Cyclic Voltammetry	Test Identifier
DATE	LABEL	7/17/2023	Date
TIME	LABEL	20:51:04	Time
NOTES	NOTES	1	Notes...

PSTAT	PSTAT	IFC1010-20234	Potentiostat
VINIT	POTEN	-1.27000E-001	F	Initial E (V)
VLIMIT1	POTEN	7.74000E-001	F	Scan Limit 1 (V)
VLIMIT2	POTEN	-2.27000E-001	F	Scan Limit 2 (V)
VFINAL	POTEN	-1.27000E-001	F	Final E (V)
SCANRATE	QUANT	4.99999E+001	Scan Rate (mV/s)
STEPSIZE	QUANT	2.00000E+000	Step Size (mV)
CYCLES	IQUANT	3	Cycles (#)
IMODE	SELECTOR	1	I/E Range Mode
IRANGE	QUANT	2.00000E+000	Max Current (mA)
AREA	QUANT	1.00000E+000	Sample Area (cm^2)
EQDELAY	QUANT	0.00000E+000	Equil. Time (s)
IRCOMP	SELECTOR	2	IRComp
PFCOR	QUANT	3.36300E+001	PF Corr. (ohm)
SAMPLINGMODE	SELECTOR	2	Sampling Mode
EOC	QUANT	0	Open Circuit (V)
ELECTRODETYPE	SELECTOR	0	Electrode Type
STRIPPING	TOGGLE	F	Used for Stripping
POLARITY	TOGGLE	F	Signal Polarity
SEQUENCER	TOGGLE	TRUE	Run as Sequence
PSTATMODEL	IQUANT	64	Pstat Model
PSTATSECTION	LABEL	IFC1010-20234	Pstat Section
PSTATSERIALNO	LABEL	20234	Pstat Serial Number
CTRLMODE	IQUANT	1	Control Mode
ELECTROMETER	IQUANT	0	RE=0 or CS=1
IESTAB	IQUANT	2	I/E Stability
CASPEED	IQUANT	4	Control Amp Speed
CONVENTION	IQUANT	1	Current Convention
ICHRANGE	IQUANT	2	Ich Range
ICHRANGEMODE	TOGGLE	F	Ich Auto Range
ICHOFFSETENABLE	TOGGLE	F	Ich Offset Enable
ICHOFFSET	QUANT	0	Ich Offset (V)
ICHFILTER	IQUANT	3	Ich Filter
VCHRANGE	IQUANT	2	Vch Range
VCHRANGEMODE	TOGGLE	F	Vch Auto Range
VCHOFFSETENABLE	TOGGLE	F	Vch Offset Enable
VCHOFFSET	QUANT	0	Vch Offset (V)
VCHFILTER	IQUANT	1	Vch Filter
IERANGELOWERLIMIT	IQUANT	4	I/E Range Lower Limit
IERANGEMODE	TOGGLE	F	I/E AutoRange
IERANGE	IQUANT	10	I/E Range
ACHSELECT	IQUANT	0	Ach Select
ACHRANGE	IQUANT	2	Ach Range
ACHOFFSETENABLE	TOGGLE	F	Ach Offset Enable
ACHOFFSET	QUANT	0	Ach Offset (V)
ACHFILTER	IQUANT	1	Ach Filter
SENSECABLEID	IQUANT	14	Sense Cable ID
PWRCABLEID	IQUANT	14	Power Cable ID
DCCALDATE	LABEL	7/15/2022	DC Calibration Date
ACCALDATE	LABEL	7/8/2020	AC Calibration Date
FRAMEWORKVERSION	LABEL	7.8.2	Framework Version
INSTRUMENTVERSION	LABEL	4.40	Instrument Version
CURVE1	TABLE
	Pt	T	Vf	Im	Vu	Sig	Ach	IERange	Over	Temp
	#	s	V vs. Ref.	A	V	V	V	#	bits	deg C
	0	0.04	-1.27017E-001	-5.93122E-007	0.00000E+000	-1.26993E-001	0.00000E+000	10	...........	1505.21
	10	0.44	-1.07029E-001	2.27060E-007	0.00000E+000	-1.06994E-001	0.00000E+000	10	...........	1505.12
	20	0.84	-8.70123E-002	3.83536E-007	0.00000E+000	-8.69959E-002	0.00000E+000	10	...........	1505.12
	30	1.24	-6.70171E-002	4.56216E-007	0.00000E+000	-6.69975E-002	0.00000E+000	10	...........	1505.21
	40	1.64	-4.70176E-002	4.35232E-007	0.00000E+000	-4.69991E-002	0.00000E+000	10	...........	1505.21
	50	2.04	-2.70202E-002	4.65526E-007	0.00000E+000	-2.70006E-002	0.00000E+000	10	...........	1505.21
	60	2.44	-7.00933E-003	4.99017E-007	0.00000E+000	-7.00217E-003	0.00000E+000	10	...........	1505.03
	70	2.84	1.30155E-002	5.08884E-007	0.00000E+000	1.29963E-002	0.00000E+000	10	...........	1505.03
	80	3.24	3.29932E-002	5.76839E-007	0.00000E+000	3.29947E-002	0.00000E+000	10	...........	1505.40
	90	3.64	5.30072E-002	6.29507E-007	0.00000E+000	5.29931E-002	0.00000E+000	10	...........	1505.40
	100	4.04	7.29628E-002	7.64861E-007	0.00000E+000	7.29916E-002	0.00000E+000	10	...........	1505.40
	110	4.44	9.29919E-002	1.03279E-006	0.00000E+000	9.29900E-002	0.00000E+000	10	...........	1505.03
	120	4.84	1.12992E-001	1.37381E-006	0.00000E+000	1.12988E-001	0.00000E+000	10	...........	1505.03
	130	5.24	1.33007E-001	1.81267E-006	0.00000E+000	1.32987E-001	0.00000E+000	10	...........	1505.49
	140	5.64	1.53004E-001	2.68983E-006	0.00000E+000	1.52985E-001	0.00000E+000	10	...........	1505.49
	150	6.04	1.73007E-001	3.74097E-006	0.00000E+000	1.72984E-001	0.00000E+000	10	...........	1505.49
	160	6.44	1.93019E-001	5.17802E-006	0.00000E+000	1.92982E-001	0.00000E+000	10	...........	1505.03
	170	6.84	2.13004E-001	7.17234E-006	0.00000E+000	2.12981E-001	0.00000E+000	10	...........	1505.03
	180	7.24	2.33020E-001	9.59856E-006	0.00000E+000	2.32979E-001	0.00000E+000	10	...........	1505.49
	190	7.64	2.52987E-001	1.22122E-005	0.00000E+000	2.52977E-001	0.00000E+000	10	...........	1505.49
	200	8.04	2.73005E-001	1.45290E-005	0.00000E+000	2.72976E-001	0.00000E+000	10	...........	1505.49
	210	8.44	2.93012E-001	1.57709E-005	0.00000E+000	2.92974E-001	0.00000E+000	10	...........	1505.03
	220	8.84	3.13058E-001	1.54806E-005	0.00000E+000	3.13023E-001	0.00000E+000	10	...........	1505.03
	230	9.24	3.33068E-001	1.43412E-005	0.00000E+000	3.33021E-001	0.00000E+000	10	...........	1505.49
	240	9.64	3.53066E-001	1.31967E-005	0.00000E+000	3.53020E-001	0.00000E+000	10	...........	1505.49
	250	10.04	3.73079E-001	1.22321E-005	0.00000E+000	3.73018E-001	0.00000E+000	10	...........	1505.49
	260	10.44	3.93078E-001	1.17891E-005	0.00000E+000	3.93017E-001	0.00000E+000	10	...........	1505.03
	270	10.84	4.13107E-001	1.17807E-005	0.00000E+000	4.13015E-001	0.00000E+000	10	...........	1505.03
	280	11.24	4.33082E-001	1.21262E-005	0.00000E+000	4.33013E-001	0.00000E+000	10	...........	1505.40
	290	11.64	4.53099E-001	1.31237E-005	0.00000E+000	4.53012E-001	0.00000E+000	10	...........	1505.40
	300	12.04	4.73084E-001	1.51922E-005	0.00000E+000	4.73010E-001	0.00000E+000	10	...........	1505.40
	310	12.44	4.93113E-001	1.98519E-005	0.00000E+000	4.93009E-001	0.00000E+000	10	...........	1505.03
	320	12.84	5.13115E-001	2.94644E-005	0.00000E+000	5.13007E-001	0.00000E+000	10	...........	1505.03
	330	13.24	5.33108E-001	4.58663E-005	0.00000E+000	5.33006E-001	0.00000E+000	10	...........	1505.40
	340	13.64	5.53105E-001	6.40296E-005	0.00000E+000	5.53004E-001	0.00000E+000	10	...........	1505.40
	350	14.04	5.73119E-001	7.41183E-005	0.00000E+000	5.73002E-001	0.00000E+000	10	...........	1505.40
	360	14.44	5.93124E-001	7.30104E-005	0.00000E+000	5.93001E-001	0.00000E+000	10	...........	1505.03
	370	14.84	6.13105E-001	6.59655E-005	0.00000E+000	6.12999E-001	0.00000E+000	10	...........	1505.03
	380	15.24	6.33121E-001	4.70916E-005	0.00000E+000	6.32998E-001	0.00000E+000	10	...........	1505.40
	390	15.64	6.53135E-001	2.89977E-005	0.00000E+000	6.52996E-001	0.00000E+000	10	...........	1505.40
	400	16.04	6.73150E-001	2.35800E-005	0.00000E+000	6.72995E-001	0.00000E+000	10	...........	1505.40
	410	16.44	6.93144E-001	2.28175E-005	0.00000E+000	6.92993E-001	0.00000E+000	10	...........	1505.03
	420	16.84	7.13118E-001	2.28529E-005	0.00000E+000	7.12992E-001	0.00000E+000	10	...........	1505.03
	430	17.24	7.33131E-001	2.31661E-005	0.00000E+000	7.32990E-001	0.00000E+000	10	...........	1505.03
	440	17.64	7.53130E-001	2.35651E-005	0.00000E+000	7.52988E-001	0.00000E+000	10	...........	1505.03
	450	18.04	7.73135E-001	2.38742E-005	0.00000E+000	7.72987E-001	0.00000E+000	10	...........	1505.03
	460	18.44	7.53125E-001	-8.51600E-007	0.00000E+000	7.52988E-001	0.00000E+000	10	...........	1505.03
	470	18.84	7.33138E-001	-4.65456E-006	0.00000E+000	7.32990E-001	0.00000E+000	10	...........	1505.03
	480	19.24	7.13115E-001	-6.56924E-006	0.00000E+000	7.12992E-001	0.00000E+000	10	...........	1505.12
	490	19.64	6.93136E-001	-7.81286E-006	0.00000E+000	6.92993E-001	0.00000E+000	10	...........	1505.12
	500	20.04	6.73141E-001	-8.72865E-006	0.00000E+000	6.72995E-001	0.00000E+000	10	...........	1505.12
	510	20.44	6.53151E-001	-9.31717E-006	0.00000E+000	6.52996E-001	0.00000E+000	10	...........	1505.03
[...]
	2966	118.68	-1.95010E-001	1.11623E-004	0.00000E+000	-1.94988E-001	0.00000E+000	10	...........	1505.03
	2967	118.72	-1.93013E-001	1.11561E-004	0.00000E+000	-1.92988E-001	0.00000E+000	10	...........	1505.03
	2968	118.76	-1.90989E-001	1.10788E-004	0.00000E+000	-1.90988E-001	0.00000E+000	10	...........	1505.03
	2969	118.8	-1.88997E-001	1.08525E-004	0.00000E+000	-1.88988E-001	0.00000E+000	10	...........	1505.03
	2970	118.84	-1.87004E-001	1.05976E-004	0.00000E+000	-1.86988E-001	0.00000E+000	10	...........	1505.03
	2971	118.88	-1.84999E-001	1.02868E-004	0.00000E+000	-1.84988E-001	0.00000E+000	10	...........	1505.03
	2972	118.92	-1.83013E-001	9.93631E-005	0.00000E+000	-1.82988E-001	0.00000E+000	10	...........	1505.03
	2973	118.96	-1.81016E-001	9.58104E-005	0.00000E+000	-1.80989E-001	0.00000E+000	10	...........	1505.03
	2974	119	-1.79003E-001	9.20518E-005	0.00000E+000	-1.78989E-001	0.00000E+000	10	...........	1505.03
	2975	119.04	-1.76999E-001	8.88344E-005	0.00000E+000	-1.76989E-001	0.00000E+000	10	...........	1505.15
	2976	119.08	-1.74995E-001	8.53263E-005	0.00000E+000	-1.74989E-001	0.00000E+000	10	...........	1505.40
	2977	119.12	-1.72996E-001	8.24103E-005	0.00000E+000	-1.72989E-001	0.00000E+000	10	...........	1505.40
	2978	119.16	-1.71006E-001	7.93761E-005	0.00000E+000	-1.70989E-001	0.00000E+000	10	...........	1505.40
	2979	119.2	-1.69000E-001	7.68959E-005	0.00000E+000	-1.68990E-001	0.00000E+000	10	...........	1505.40
	2980	119.24	-1.67021E-001	7.42069E-005	0.00000E+000	-1.66990E-001	0.00000E+000	10	...........	1505.40
	2981	119.28	-1.65000E-001	7.20906E-005	0.00000E+000	-1.64990E-001	0.00000E+000	10	...........	1505.40
	2982	119.32	-1.62999E-001	6.99951E-005	0.00000E+000	-1.62990E-001	0.00000E+000	10	...........	1505.40
	2983	119.36	-1.61020E-001	6.82490E-005	0.00000E+000	-1.60990E-001	0.00000E+000	10	...........	1505.40
	2984	119.4	-1.59006E-001	6.68008E-005	0.00000E+000	-1.58990E-001	0.00000E+000	10	...........	1505.40
	2985	119.44	-1.57012E-001	6.54395E-005	0.00000E+000	-1.56990E-001	0.00000E+000	10	...........	1505.40
	2986	119.48	-1.55016E-001	6.42922E-005	0.00000E+000	-1.54991E-001	0.00000E+000	10	...........	1505.40
	2987	119.52	-1.52985E-001	6.26566E-005	0.00000E+000	-1.52991E-001	0.00000E+000	10	...........	1505.40
	2988	119.56	-1.51001E-001	6.13442E-005	0.00000E+000	-1.50991E-001	0.00000E+000	10	...........	1505.40
	2989	119.6	-1.48980E-001	5.97063E-005	0.00000E+000	-1.48991E-001	0.00000E+000	10	...........	1505.40
	2990	119.64	-1.46996E-001	5.87390E-005	0.00000E+000	-1.46991E-001	0.00000E+000	10	...........	1505.40
	2991	119.68	-1.45000E-001	5.73728E-005	0.00000E+000	-1.44991E-001	0.00000E+000	10	...........	1505.40
	2992	119.72	-1.43006E-001	5.65650E-005	0.00000E+000	-1.42992E-001	0.00000E+000	10	...........	1505.40
	2993	119.76	-1.40991E-001	5.57993E-005	0.00000E+000	-1.40992E-001	0.00000E+000	10	...........	1505.40
	2994	119.8	-1.39003E-001	5.48522E-005	0.00000E+000	-1.38992E-001	0.00000E+000	10	...........	1505.40
	2995	119.84	-1.37006E-001	5.45165E-005	0.00000E+000	-1.36992E-001	0.00000E+000	10	...........	1505.40
	2996	119.88	-1.35031E-001	5.35569E-005	0.00000E+000	-1.34992E-001	0.00000E+000	10	...........	1505.40
	2997	119.92	-1.33028E-001	5.34878E-005	0.00000E+000	-1.32992E-001	0.00000E+000	10	...........	1505.40
	2998	119.96	-1.31031E-001	5.29292E-005	0.00000E+000	-1.30993E-001	0.00000E+000	10	...........	1505.40
	2999	120	-1.29030E-001	5.27812E-005	0.00000E+000	-1.28993E-001	0.00000E+000	10	...........	1505.40
	3000	120.04	-1.27020E-001	5.25174E-005	0.00000E+000	-1.26993E-001	0.00000E+000	10	...........	1505.27

File: Test_Break_in.DTA
EXPLAIN
TAG	CV
TITLE	LABEL	Cyclic Voltammetry	Test Identifier
DATE	LABEL	7/17/2023	Date
TIME	LABEL	19:32:03	Time
NOTES	NOTES	1	Notes...

PSTAT	PSTAT	IFC1010-20234	Potentiostat
VINIT	POTEN	-2.27000E-001	F	Initial E (V)
VLIMIT1	POTEN	1.27400E+000	F	Scan Limit 1 (V)
VLIMIT2	POTEN	-2.27000E-001	F	Scan Limit 2 (V)
VFINAL	POTEN	-1.27000E-001	F	Final E (V)
SCANRATE	QUANT	4.99999E+001	Scan Rate (mV/s)
STEPSIZE	QUANT	2.00000E+000	Step Size (mV)
CYCLES	IQUANT	30	Cycles (#)
IMODE	SELECTOR	1	I/E Range Mode
IRANGE	QUANT	2.00000E+000	Max Current (mA)
AREA	QUANT	1.00000E+000	Sample Area (cm^2)
EQDELAY	QUANT	5.00000E+000	Equil. Time (s)
IRCOMP	SELECTOR	2	IRComp
PFCOR	QUANT	3.36300E+001	PF Corr. (ohm)
SAMPLINGMODE	SELECTOR	2	Sampling Mode
EOC	QUANT	0	Open Circuit (V)
ELECTRODETYPE	SELECTOR	0	Electrode Type
STRIPPING	TOGGLE	F	Used for Stripping
POLARITY	TOGGLE	F	Signal Polarity
SEQUENCER	TOGGLE	TRUE	Run as Sequence
PSTATMODEL	IQUANT	64	Pstat Model
PSTATSECTION	LABEL	IFC1010-20234	Pstat Section
PSTATSERIALNO	LABEL	20234	Pstat Serial Number
CTRLMODE	IQUANT	1	Control Mode
ELECTROMETER	IQUANT	0	RE=0 or CS=1
IESTAB	IQUANT	2	I/E Stability
CASPEED	IQUANT	4	Control Amp Speed
CONVENTION	IQUANT	1	Current Convention
ICHRANGE	IQUANT	2	Ich Range
ICHRANGEMODE	TOGGLE	F	Ich Auto Range
ICHOFFSETENABLE	TOGGLE	F	Ich Offset Enable
ICHOFFSET	QUANT	0	Ich Offset (V)
ICHFILTER	IQUANT	3	Ich Filter
VCHRANGE	IQUANT	2	Vch Range
VCHRANGEMODE	TOGGLE	F	Vch Auto Range
VCHOFFSETENABLE	TOGGLE	F	Vch Offset Enable
VCHOFFSET	QUANT	0	Vch Offset (V)
VCHFILTER	IQUANT	1	Vch Filter
IERANGELOWERLIMIT	IQUANT	4	I/E Range Lower Limit
IERANGEMODE	TOGGLE	F	I/E AutoRange
IERANGE	IQUANT	10	I/E Range
ACHSELECT	IQUANT	0	Ach Select
ACHRANGE	IQUANT	2	Ach Range
ACHOFFSETENABLE	TOGGLE	F	Ach Offset Enable
ACHOFFSET	QUANT	0	Ach Offset (V)
ACHFILTER	IQUANT	1	Ach Filter
SENSECABLEID	IQUANT	14	Sense Cable ID
PWRCABLEID	IQUANT	14	Power Cable ID
DCCALDATE	LABEL	7/15/2022	DC Calibration Date
ACCALDATE	LABEL	7/8/2020	AC Calibration Date
FRAMEWORKVERSION	LABEL	7.8.2	Framework Version
INSTRUMENTVERSION	LABEL	4.40	Instrument Version
CURVE1	TABLE
	Pt	T	Vf	Im	Vu	Sig	Ach	IERange	Over	Temp
	#	s	V vs. Ref.	A	V	V	V	#	bits	deg C
	0	0.04	-2.26972E-001	-1.14515E-004	0.00000E+000	-2.26987E-001	0.00000E+000	10	...........	1505.77
	15	0.64	-1.96983E-001	2.36413E-004	0.00000E+000	-1.96990E-001	0.00000E+000	10	...........	1505.77
	30	1.24	-1.67013E-001	1.61629E-004	0.00000E+000	-1.66992E-001	0.00000E+000	10	...........	1505.77
	45	1.84	-1.36997E-001	1.13076E-004	0.00000E+000	-1.36995E-001	0.00000E+000	10	...........	1505.49
	60	2.44	-1.06992E-001	9.20892E-005	0.00000E+000	-1.06997E-001	0.00000E+000	10	...........	1505.49
	75	3.04	-7.69799E-002	8.02427E-005	0.00000E+000	-7.69992E-002	0.00000E+000	10	...........	1505.12
	90	3.64	-4.69765E-002	7.03788E-005	0.00000E+000	-4.70016E-002	0.00000E+000	10	...........	1505.12
	105	4.24	-1.69737E-002	6.30272E-005	0.00000E+000	-1.70039E-002	0.00000E+000	10	...........	1505.12
	120	4.84	1.30219E-002	5.65013E-005	0.00000E+000	1.29938E-002	0.00000E+000	10	...........	1505.12
	135	5.44	4.30077E-002	4.79357E-005	0.00000E+000	4.29914E-002	0.00000E+000	10	...........	1505.12
	150	6.04	7.30054E-002	3.86299E-005	0.00000E+000	7.29890E-002	0.00000E+000	10	...........	1505.12
	165	6.64	1.03037E-001	3.00472E-005	0.00000E+000	1.02987E-001	0.00000E+000	10	...........	1505.12
	180	7.24	1.33012E-001	2.32087E-005	0.00000E+000	1.32984E-001	0.00000E+000	10	...........	1505.21
	195	7.84	1.63024E-001	1.89349E-005	0.00000E+000	1.62982E-001	0.00000E+000	10	...........	1505.03
	210	8.44	1.93027E-001	1.62482E-005	0.00000E+000	1.92980E-001	0.00000E+000	10	...........	1505.03
	225	9.04	2.23007E-001	1.44845E-005	0.00000E+000	2.22977E-001	0.00000E+000	10	...........	1505.03
	240	9.64	2.53011E-001	1.32172E-005	0.00000E+000	2.52975E-001	0.00000E+000	10	...........	1505.03
	255	10.24	2.83101E-001	1.22527E-005	0.00000E+000	2.83023E-001	0.00000E+000	10	...........	1505.12
	270	10.84	3.13088E-001	1.13597E-005	0.00000E+000	3.13020E-001	0.00000E+000	10	...........	1505.03
	285	11.44	3.43088E-001	1.06796E-005	0.00000E+000	3.43018E-001	0.00000E+000	10	...........	1505.03
	300	12.04	3.73088E-001	1.02370E-005	0.00000E+000	3.73016E-001	0.00000E+000	10	...........	1505.12
	315	12.64	4.03084E-001	9.75434E-006	0.00000E+000	4.03013E-001	0.00000E+000	10	...........	1505.12
	330	13.24	4.33099E-001	9.56993E-006	0.00000E+000	4.33011E-001	0.00000E+000	10	...........	1505.12
	345	13.84	4.63113E-001	9.63747E-006	0.00000E+000	4.63009E-001	0.00000E+000	10	...........	1505.12
	360	14.44	4.93113E-001	9.83118E-006	0.00000E+000	4.93006E-001	0.00000E+000	10	...........	1505.12
	375	15.04	5.23130E-001	1.01833E-005	0.00000E+000	5.23004E-001	0.00000E+000	10	...........	1505.30
	390	15.64	5.53131E-001	1.06512E-005	0.00000E+000	5.53002E-001	0.00000E+000	10	...........	1505.30
	405	16.24	5.83131E-001	1.10441E-005	0.00000E+000	5.82999E-001	0.00000E+000	10	...........	1505.12
	420	16.84	6.13117E-001	1.16936E-005	0.00000E+000	6.12997E-001	0.00000E+000	10	...........	1505.40
	435	17.44	6.43136E-001	1.23216E-005	0.00000E+000	6.42994E-001	0.00000E+000	10	...........	1505.40
	450	18.04	6.73129E-001	1.32774E-005	0.00000E+000	6.72992E-001	0.00000E+000	10	...........	1505.12
	465	18.64	7.03134E-001	1.43565E-005	0.00000E+000	7.02990E-001	0.00000E+000	10	...........	1505.12
	480	19.24	7.33146E-001	1.56439E-005	0.00000E+000	7.32987E-001	0.00000E+000	10	...........	1505.49
	495	19.84	7.63147E-001	1.73829E-005	0.00000E+000	7.62985E-001	0.00000E+000	10	...........	1505.12
	510	20.44	7.93135E-001	1.94881E-005	0.00000E+000	7.92983E-001	0.00000E+000	10	...........	1505.12
	525	21.04	8.23162E-001	2.16381E-005	0.00000E+000	8.22980E-001	0.00000E+000	10	...........	1505.12
	540	21.64	8.53175E-001	2.39565E-005	0.00000E+000	8.52978E-001	0.00000E+000	10	...........	1505.12
	555	22.24	8.83152E-001	2.64560E-005	0.00000E+000	8.82976E-001	0.00000E+000	10	...........	1505.12
	570	22.84	9.13187E-001	2.90942E-005	0.00000E+000	9.12973E-001	0.00000E+000	10	...........	1505.21
	585	23.44	9.43220E-001	3.18504E-005	0.00000E+000	9.43021E-001	0.00000E+000	10	...........	1505.21
	600	24.04	9.73222E-001	3.44475E-005	0.00000E+000	9.73019E-001	0.00000E+000	10	...........	1505.12
	615	24.64	1.00322E+000	3.72519E-005	0.00000E+000	1.00302E+000	0.00000E+000	10	...........	1505.12
	630	25.24	1.03323E+000	3.96875E-005	0.00000E+000	1.03301E+000	0.00000E+000	10	...........	1505.21
	645	25.84	1.06325E+000	4.19935E-005	0.00000E+000	1.06301E+000	0.00000E+000	10	...........	1505.12
	660	26.44	1.09322E+000	4.39294E-005	0.00000E+000	1.09301E+000	0.00000E+000	10	...........	1505.12
	675	27.04	1.12324E+000	4.56967E-005	0.00000E+000	1.12301E+000	0.00000E+000	10	...........	1505.30
	690	27.64	1.15326E+000	4.76504E-005	0.00000E+000	1.15300E+000	0.00000E+000	10	...........	1505.30
	705	28.24	1.18325E+000	4.95274E-005	0.00000E+000	1.18300E+000	0.00000E+000	10	...........	1505.49
	720	28.84	1.21323E+000	5.14602E-005	0.00000E+000	1.21300E+000	0.00000E+000	10	...........	1505.12
	735	29.44	1.24328E+000	5.35181E-005	0.00000E+000	1.24300E+000	0.00000E+000	10	...........	1505.12
	750	30.04	1.27326E+000	5.56057E-005	0.00000E+000	1.27300E+000	0.00000E+000	10	...........	1505.12
	765	30.64	1.24328E+000	2.56831E-005	0.00000E+000	1.24300E+000	0.00000E+000	10	...........	1505.12
[...]
	3961	158.48	8.51164E-001	-5.20806E-006	0.00000E+000	8.50978E-001	0.00000E+000	10	...........	1505.49
	3977	159.12	8.19173E-001	-6.54187E-006	0.00000E+000	8.18981E-001	0.00000E+000	10	...........	1505.12
	3993	159.76	7.87147E-001	-8.08051E-006	0.00000E+000	7.86983E-001	0.00000E+000	10	...........	1505.12
	4009	160.4	7.55140E-001	-1.04250E-005	0.00000E+000	7.54986E-001	0.00000E+000	10	...........	1505.12
	4025	161.04	7.23138E-001	-1.30947E-005	0.00000E+000	7.22988E-001	0.00000E+000	10	...........	1505.30
	4041	161.68	6.91120E-001	-1.65469E-005	0.00000E+000	6.90991E-001	0.00000E+000	10	...........	1505.30
	4057	162.32	6.59107E-001	-2.20043E-005	0.00000E+000	6.58993E-001	0.00000E+000	10	...........	1505.12
	4073	162.96	6.27120E-001	-3.02073E-005	0.00000E+000	6.26996E-001	0.00000E+000	10	...........	1505.40
	4089	163.6	5.95126E-001	-3.99891E-005	0.00000E+000	5.94998E-001	0.00000E+000	10	...........	1505.40
	4105	164.24	5.63119E-001	-4.96371E-005	0.00000E+000	5.63001E-001	0.00000E+000	10	...........	1505.21
	4121	164.88	5.31114E-001	-5.42160E-005	0.00000E+000	5.31003E-001	0.00000E+000	10	...........	1505.49
	4137	165.52	4.99104E-001	-4.88462E-005	0.00000E+000	4.99006E-001	0.00000E+000	10	...........	1505.49
	4153	166.16	4.67121E-001	-3.72413E-005	0.00000E+000	4.67008E-001	0.00000E+000	10	...........	1505.12
	4169	166.8	4.35127E-001	-2.63232E-005	0.00000E+000	4.35011E-001	0.00000E+000	10	...........	1505.40
	4185	167.44	4.03082E-001	-1.87755E-005	0.00000E+000	4.03013E-001	0.00000E+000	10	...........	1505.40
	4201	168.08	3.71073E-001	-1.36782E-005	0.00000E+000	3.71016E-001	0.00000E+000	10	...........	1505.12
	4217	168.72	3.39103E-001	-1.01410E-005	0.00000E+000	3.39018E-001	0.00000E+000	10	...........	1505.16
	4233	169.36	3.07114E-001	-7.85038E-006	0.00000E+000	3.07021E-001	0.00000E+000	10	...........	1505.30
	4249	170	2.75084E-001	-6.31382E-006	0.00000E+000	2.75023E-001	0.00000E+000	10	...........	1505.12
	4265	170.64	2.43038E-001	-5.53895E-006	0.00000E+000	2.42976E-001	0.00000E+000	10	...........	1505.12
	4281	171.28	2.11051E-001	-5.35120E-006	0.00000E+000	2.10978E-001	0.00000E+000	10	...........	1505.40
	4297	171.92	1.79040E-001	-5.36843E-006	0.00000E+000	1.78981E-001	0.00000E+000	10	...........	1505.12
	4313	172.56	1.47025E-001	-6.04979E-006	0.00000E+000	1.46983E-001	0.00000E+000	10	...........	1505.12
	4329	173.2	1.15032E-001	-7.85677E-006	0.00000E+000	1.14986E-001	0.00000E+000	10	...........	1505.40
	4345	173.84	8.30244E-002	-1.22199E-005	0.00000E+000	8.29883E-002	0.00000E+000	10	...........	1505.12
	4361	174.48	5.10275E-002	-1.85939E-005	0.00000E+000	5.09908E-002	0.00000E+000	10	...........	1505.12
	4377	175.12	1.90273E-002	-2.94322E-005	0.00000E+000	1.89933E-002	0.00000E+000	10	...........	1505.40
	4393	175.76	-1.29634E-002	-3.98005E-005	0.00000E+000	-1.30042E-002	0.00000E+000	10	...........	1505.12
	4409	176.4	-4.49621E-002	-3.91434E-005	0.00000E+000	-4.50017E-002	0.00000E+000	10	...........	1505.12
	4425	177.04	-7.69724E-002	-4.51671E-005	0.00000E+000	-7.69992E-002	0.00000E+000	10	...........	1505.40
	4441	177.68	-1.08969E-001	-5.62655E-005	0.00000E+000	-1.08997E-001	0.00000E+000	10	...........	1505.40
	4457	178.32	-1.40972E-001	-6.15395E-005	0.00000E+000	-1.40994E-001	0.00000E+000	10	...........	1505.12
	4473	178.96	-1.72974E-001	-7.49408E-005	0.00000E+000	-1.72992E-001	0.00000E+000	10	...........	1505.40
	4489	179.6	-2.04968E-001	-1.54294E-004	0.00000E+000	-2.04989E-001	0.00000E+000	10	...........	1505.40
	4500	180.04	-2.26969E-001	-3.38373E-004	0.00000E+000	-2.26987E-001	0.00000E+000	10	...........	1505.03